participant,trial,clusters_key,distribution_key,rt_s
1,1,D,A,45
1,2,B,B,50
1,3,C,C,60
1,4,C,D,55
1,5,B,A,48
1,6,D,B,52
1,7,C,C,58
1,8,C,D,65
1,9,A,A,40
1,10,B,B,42
1,11,C,C,50
1,12,C,D,55
1,13,A,A,38
1,14,A,B,45
1,15,B,C,53
1,16,B,D,57
1,17,D,A,62
1,18,D,B,59
1,19,C,C,64
1,20,C,D,61
1,21,B,A,47
1,22,C,B,49
1,23,C,C,56
1,24,D,D,70
1,25,A,A,35
1,26,A,B,43
1,27,A,D,46
1,28,B,D,54
1,29,A,A,37
1,30,B,C,44
1,31,B,C,51
1,32,B,D,66